File: XRD/Experimental/PowDLL_XY_XRD_Monday, May 22, 2023.csv
PrYVO_05,intensity,PrYVO_05_90,intensity
5.02343,4380,5.02343,4438
5.10221,4236,5.10221,4351
5.18099,4320,5.18099,4350
5.25978,4177,5.25978,4292
5.33856,4288,5.33856,4258
5.41734,4090,5.41734,4182
5.49612,4057,5.49612,4121
5.5749,4101,5.5749,4209
5.65368,4048,5.65368,4050
5.73247,4013,5.73247,4092
5.81125,4033,5.81125,4093
5.89003,3990,5.89003,4044
5.96881,3903,5.96881,4028
6.04759,3909,6.04759,4102
6.12637,3943,6.12637,3902
6.20516,3953,6.20516,4106
6.28394,3824,6.28394,3869
6.36272,3860,6.36272,3950
6.4415,3860,6.4415,3799
6.52028,3933,6.52028,3819
6.59906,3890,6.59906,3988
6.67785,3821,6.67785,3842
6.75663,3682,6.75663,3914
6.83541,3656,6.83541,3695
6.91419,3784,6.91419,3772
6.99297,3738,6.99297,3916
7.07175,3692,7.07175,3825
7.15054,3627,7.15054,3713
7.22932,3554,7.22932,3694
7.3081,3634,7.3081,3792
7.38688,3590,7.38688,3768
7.46566,3643,7.46566,3698
7.544445,3591,7.544445,3785
7.62323,3542,7.62323,3630
7.70201,3519,7.70201,3686
7.78079,3554,7.78079,3648
7.85957,3518,7.85957,3726
7.93835,3423,7.93835,3570
8.01714,3509,8.01714,3621
8.09592,3470,8.09592,3567
8.1747,3413,8.1747,3484
8.25348,3460,8.25348,3534
8.33226,3354,8.33226,3542
8.41104,3472,8.41104,3395
8.48983,3480,8.48983,3536
8.56861,3323,8.56861,3486
8.64739,3371,8.64739,3337
8.72617,3460,8.72617,3436
8.80495,3434,8.80495,3399
8.88373,3419,8.88373,3415
8.96252,3295,8.96252,3367
9.0413,3365,9.0413,3314
9.12008,3178,9.12008,3305
9.19886,3226,9.19886,3318
9.27764,3313,9.27764,3275
9.35642,3193,9.35642,3269
9.43521,3092,9.43521,3314
9.51399,3204,9.51399,3220
9.59277,3179,9.59277,3280
9.67155,3213,9.67155,3234
9.75033,3094,9.75033,3175
9.82911,3171,9.82911,3259
9.9079,3142,9.9079,3170
9.98668,3100,9.98668,3093
10.0655,3028,10.0655,3214
10.1442,3181,10.1442,3087
10.223,3096,10.223,3161
10.3018,3078,10.3018,3044
10.3806,3090,10.3806,3075
10.4594,2997,10.4594,3027
10.5381,2978,10.5381,3098
10.6169,2942,10.6169,3064
10.6957,3038,10.6957,3050
10.7745,2901,10.7745,2936
10.8533,2949,10.8533,3050
10.9321,2883,10.9321,3037
11.0108,2995,11.0108,3003
11.0896,2803,11.0896,2944
11.1684,2805,11.1684,2813
11.2472,2895,11.2472,2930
11.326,2804,11.326,3018
11.4047,2855,11.4047,2804
11.4835,2743,11.4835,2877
11.5623,2822,11.5623,2809
11.6411,2726,11.6411,2835
11.7199,2689,11.7199,2832
11.7987,2756,11.7987,2879
11.8774,2777,11.8774,2715
11.9562,2724,11.9562,2730
12.035,2641,12.035,2792
12.1138,2702,12.1138,2820
12.1926,2718,12.1926,2767
12.2713,2641,12.2713,2769
12.3501,2548,12.3501,2691
12.4289,2708,12.4289,2737
12.5077,2617,12.5077,2641
12.5865,2599,12.5865,2664
12.6653,2640,12.6653,2697
12.744,2527,12.744,2790
12.8228,2518,12.8228,2663
12.9016,2584,12.9016,2594
12.9804,2539,12.9804,2580
13.0592,2507,13.0592,2710
13.1379,2498,13.1379,2598
13.2167,2474,13.2167,2589
13.2955,2475,13.2955,2529
13.3743,2391,13.3743,2517
13.4531,2419,13.4531,2490
13.5319,2497,13.5319,2461
13.6106,2384,13.6106,2449
13.6894,2373,13.6894,2405
13.7682,2336,13.7682,2404
13.847,2469,13.847,2393
13.9258,2317,13.9258,2313
14.0045,2389,14.0045,2386
14.0833,2370,14.0833,2315
14.1621,2358,14.1621,2371
14.2409,2270,14.2409,2433
14.3197,2293,14.3197,2265
14.3985,2309,14.3985,2288
14.4772,2238,14.4772,2243
14.556,2178,14.556,2331
14.6348,2207,14.6348,2296
14.7136,2136,14.7136,2312
14.7924,2168,14.7924,2271
14.8711,2165,14.8711,2283
14.9499,2118,14.9499,2281
15.0287,2080,15.0287,2206
15.1075,2215,15.1075,2174
15.1863,2190,15.1863,2186
15.2651,2054,15.2651,2235
15.3438,2144,15.3438,2158
15.4226,2111,15.4226,2159
15.5014,2062,15.5014,2104
15.5802,1965,15.5802,2219
15.659,2002,15.659,2126
15.7377,1998,15.7377,2035
15.8165,2019,15.8165,2073
15.8953,1944,15.8953,2119
15.9741,1945,15.9741,2033
16.0529,1956,16.0529,2060
16.1317,1985,16.1317,2089
16.2104,1931,16.2104,2076
16.2892,1941,16.2892,1996
16.368,1994,16.368,1973
16.4468,1904,16.4468,2002
16.5256,1850,16.5256,1984
16.6043,1938,16.6043,1912
16.6831,1941,16.6831,1997
16.7619,1869,16.7619,2040
16.8407,1810,16.8407,1950
16.9195,1946,16.9195,1964
16.9983,1803,16.9983,1902
17.077,1876,17.077,1979
17.1558,1898,17.1558,1938
17.2346,1854,17.2346,1944
17.3134,1806,17.3134,2005
17.3922,1793,17.3922,1993
17.4709,1821,17.4709,1928
17.5497,1923,17.5497,1861
17.6285,1786,17.6285,1874
17.7073,1772,17.7073,1984
17.7861,1762,17.7861,1845
17.8648,1729,17.8648,1902
17.9436,1784,17.9436,1833
18.0224,1770,18.0224,1815
18.1012,1710,18.1012,1860
18.18,1668,18.18,1991
18.2588,1685,18.2588,1896
18.3375,1740,18.3375,1829
18.4163,1677,18.4163,1845
18.4951,1635,18.4951,1798
18.5739,1673,18.5739,1773
18.6527,1699,18.6527,1868
18.7314,1688,18.7314,1840
18.8102,1619,18.8102,1797
18.889,1656,18.889,1807
18.9678,1639,18.9678,1752
19.0466,1651,19.0466,1771
19.1254,1615,19.1254,1773
19.2041,1639,19.2041,1741
19.2829,1547,19.2829,1748
19.3617,1613,19.3617,1730
19.4405,1596,19.4405,1667
19.5193,1494,19.5193,1674
19.598,1540,19.598,1757
19.6768,1543,19.6768,1824
19.7556,1499,19.7556,1723
19.8344,1474,19.8344,1766
19.9132,1513,19.9132,1723
19.992,1522,19.992,1737
20.0707,1580,20.0707,1808
20.1495,1468,20.1495,1780
20.2283,1519,20.2283,1722
20.3071,1517,20.3071,1725
20.3859,1463,20.3859,1726
20.4646,1506,20.4646,1661
20.5434,1433,20.5434,1752
20.6222,1439,20.6222,1755
20.701,1420,20.701,1863
20.7798,1416,20.7798,1781
20.8586,1473,20.8586,1704
20.9373,1425,20.9373,1708
21.0161,1451,21.0161,1761
21.0949,1541,21.0949,1712
21.1737,1447,21.1737,1654
21.2525,1419,21.2525,1776
21.3312,1374,21.3312,1720
21.41,1336,21.41,1728
21.4888,1462,21.4888,1672
21.5676,1381,21.5676,1704
21.6464,1374,21.6464,1718
21.7252,1387,21.7252,1674
21.8039,1331,21.8039,1749
21.8827,1411,21.8827,1635
21.9615,1372,21.9615,1665
22.0403,1308,22.0403,1790
22.1191,1345,22.1191,1789
22.1978,1368,22.1978,1836
22.2766,1304,22.2766,2116
22.3554,1310,22.3554,2875
22.4342,1385,22.4342,7726
22.513,1329,22.513,17810
22.5918,1265,22.5918,19727
22.6705,1297,22.6705,3700
22.7493,1280,22.7493,2964
22.8281,1263,22.8281,2822
22.9069,1343,22.9069,2974
22.9857,1279,22.9857,3129
23.0644,1267,23.0644,3175
23.1432,1256,23.1432,3180
23.222,1286,23.222,3295
23.3008,1274,23.3008,3353
23.3796,1241,23.3796,3445
23.4584,1219,23.4584,3555
23.5371,1253,23.5371,3980
23.6159,1204,23.6159,4246
23.6947,1170,23.6947,4662
23.7735,1223,23.7735,5358
23.8523,1204,23.8523,6055
23.931,1169,23.931,11459
24.0098,1213,24.0098,8885
24.0886,1157,24.0886,15723
24.1674,1205,24.1674,39789
24.2462,1194,24.2462,52061
24.3249,1203,24.3249,70125
24.4037,1111,24.4037,91233
24.4825,1182,24.4825,118482
24.5613,1192,24.5613,154835
24.6401,1158,24.6401,207313
24.7189,1170,24.7189,302523
24.7976,1168,24.7976,586573
24.8764,1135,24.8764,2205512
24.9552,1128,24.9552,16345938
25.034,1160,25.034,42026808
25.1128,1124,25.1128,6781038
25.1915,1122,25.1915,782460
25.2703,1130,25.2703,320631
25.3491,1131,25.3491,184488
25.4279,1116,25.4279,115669
25.5067,1138,25.5067,76547
25.5855,1161,25.5855,53806
25.6642,1072,25.6642,37816
25.743,1106,25.743,28376
25.8218,1118,25.8218,21639
25.9006,1055,25.9006,17660
25.9794,1063,25.9794,14884
26.0581,1096,26.0581,12485
26.1369,1094,26.1369,11178
26.2157,1107,26.2157,9817
26.2945,1091,26.2945,8729
26.3733,1035,26.3733,7595
26.4521,1040,26.4521,6585
26.5308,1080,26.5308,5898
26.6096,1011,26.6096,5339
26.6884,1049,26.6884,4743
26.7672,1053,26.7672,4540
26.846,1063,26.846,4268
26.9247,1069,26.9247,4058
27.0035,1016,27.0035,3830
27.0823,984,27.0823,3656
27.1611,1029,27.1611,3437
27.2399,1056,27.2399,3177
27.3187,1023,27.3187,3173
27.3974,998,27.3974,3040
27.4762,1015,27.4762,2830
27.555,994,27.555,2828
27.6338,1052,27.6338,2639
27.7126,1069,27.7126,2516
27.7913,1009,27.7913,2339
27.8701,1051,27.8701,2288
27.9489,1031,27.9489,2173
28.0277,1021,28.0277,2153
28.1065,1009,28.1065,1992
28.1853,1084,28.1853,2084
28.264,1150,28.264,2037
28.3428,1516,28.3428,2036
28.4216,2355,28.4216,1972
28.5004,1500,28.5004,2098
28.5792,1056,28.5792,2037
28.6579,1007,28.6579,2004
28.7367,1036,28.7367,2089
28.8155,968,28.8155,1956
28.8943,943,28.8943,1996
28.9731,992,28.9731,1986
29.0519,913,29.0519,2156
29.1306,905,29.1306,2159
29.2094,985,29.2094,2352
29.2882,986,29.2882,2395
29.367,910,29.367,2584
29.4458,909,29.4458,2838
29.5245,927,29.5245,2935
29.6033,871,29.6033,3075
29.6821,894,29.6821,3041
29.7609,882,29.7609,2811
29.8397,881,29.8397,2534
29.9185,906,29.9185,2218
29.9972,913,29.9972,1981
30.076,873,30.076,1856
30.1548,932,30.1548,1799
30.2336,860,30.2336,1592
30.3124,870,30.3124,1572
30.3911,889,30.3911,1563
30.4699,951,30.4699,1470
30.5487,865,30.5487,1390
30.6275,882,30.6275,1395
30.7063,819,30.7063,1370
30.785,854,30.785,1319
30.8638,866,30.8638,1282
30.9426,905,30.9426,1244
31.0214,856,31.0214,1292
31.1002,843,31.1002,1284
31.179,876,31.179,1217
31.2577,832,31.2577,1332
31.3365,845,31.3365,1247
31.4153,874,31.4153,1200
31.4941,862,31.4941,1212
31.5729,831,31.5729,1184
31.6516,836,31.6516,1130
31.7304,835,31.7304,1140
31.8092,788,31.8092,1159
31.888,879,31.888,1153
31.9668,822,31.9668,1140
32.0456,781,32.0456,1111
32.1243,812,32.1243,1153
32.2031,823,32.2031,1173
32.2819,849,32.2819,1015
32.3607,786,32.3607,1123
32.4395,841,32.4395,1079
32.5182,806,32.5182,1109
32.597,860,32.597,1111
32.6758,839,32.6758,1016
32.7546,811,32.7546,1079
32.8334,830,32.8334,1086
32.9122,780,32.9122,1066
32.9909,825,32.9909,1083
33.0697,800,33.0697,1020
33.1485,825,33.1485,1061
33.2273,758,33.2273,1106
33.3061,780,33.3061,975
33.3848,833,33.3848,1015
33.4636,833,33.4636,1111
33.5424,839,33.5424,1059
33.6212,791,33.6212,1019
33.7,743,33.7,1010
33.7788,759,33.7788,1015
33.8575,756,33.8575,933
33.9363,806,33.9363,1016
34.0151,805,34.0151,1004
34.0939,804,34.0939,999
34.1727,791,34.1727,961
34.2514,793,34.2514,1057
34.3302,795,34.3302,1037
34.409,724,34.409,1100
34.4878,772,34.4878,927
34.5666,766,34.5666,956
34.6454,772,34.6454,923
34.7241,763,34.7241,974
34.8029,784,34.8029,956
34.8817,770,34.8817,975
34.9605,768,34.9605,940
35.0393,728,35.0393,894
35.118,752,35.118,1008
35.1968,777,35.1968,917
35.2756,720,35.2756,990
35.3544,763,35.3544,979
35.4332,766,35.4332,943
35.512,718,35.512,1041
35.5907,749,35.5907,1029
35.6695,738,35.6695,988
35.7483,797,35.7483,984
35.8271,769,35.8271,962
35.9059,767,35.9059,944
35.9846,714,35.9846,918
36.0634,797,36.0634,942
36.1422,708,36.1422,937
36.221,720,36.221,887
36.2998,705,36.2998,869
36.3786,703,36.3786,890
36.4573,683,36.4573,930
36.5361,747,36.5361,915
36.6149,718,36.6149,924
36.6937,739,36.6937,898
36.7725,713,36.7725,850
36.8512,756,36.8512,875
36.93,710,36.93,879
37.0088,761,37.0088,854
37.0876,723,37.0876,895
37.1664,705,37.1664,848
37.2451,744,37.2451,914
37.3239,747,37.3239,918
37.4027,732,37.4027,878
37.4815,720,37.4815,937
37.5603,702,37.5603,891
37.6391,725,37.6391,894
37.7178,718,37.7178,903
37.7966,716,37.7966,877
37.8754,708,37.8754,876
37.9542,699,37.9542,830
38.033,723,38.033,881
38.1117,651,38.1117,904
38.1905,710,38.1905,915
38.2693,736,38.2693,929
38.3481,734,38.3481,850
38.4269,691,38.4269,908
38.5057,694,38.5057,867
38.5844,717,38.5844,853
38.6632,663,38.6632,853
38.742,677,38.742,841
38.8208,690,38.8208,848
38.8996,719,38.8996,840
38.9783,695,38.9783,858
39.0571,650,39.0571,854
39.1359,640,39.1359,807
39.2147,702,39.2147,813
39.2935,662,39.2935,868
39.3723,692,39.3723,856
39.451,693,39.451,866
39.5298,692,39.5298,844
39.6086,648,39.6086,873
39.6874,657,39.6874,825
39.7662,652,39.7662,837
39.8449,697,39.8449,826
39.9237,675,39.9237,839
40.0025,661,40.0025,919
40.0813,657,40.0813,909
40.1601,649,40.1601,747
40.2389,670,40.2389,901
40.3176,675,40.3176,892
40.3964,647,40.3964,846
40.4752,672,40.4752,869
40.554,654,40.554,846
40.6328,659,40.6328,889
40.7115,651,40.7115,884
40.7903,680,40.7903,903
40.8691,649,40.8691,878
40.9479,681,40.9479,831
41.0267,658,41.0267,831
41.1055,653,41.1055,933
41.1842,641,41.1842,877
41.263,632,41.263,820
41.3418,671,41.3418,867
41.4206,702,41.4206,849
41.4994,630,41.4994,858
41.5781,648,41.5781,782
41.6569,643,41.6569,852
41.7357,637,41.7357,836
41.8145,709,41.8145,881
41.8933,673,41.8933,856
41.9721,686,41.9721,866
42.0508,657,42.0508,845
42.1296,610,42.1296,865
42.2084,607,42.2084,852
42.2872,632,42.2872,821
42.366,591,42.366,835
42.4447,626,42.4447,807
42.5235,615,42.5235,775
42.6023,644,42.6023,845
42.6811,637,42.6811,764
42.7599,637,42.7599,838
42.8387,690,42.8387,770
42.9174,672,42.9174,849
42.9962,633,42.9962,808
43.075,738,43.075,800
43.1538,636,43.1538,820
43.2326,647,43.2326,798
43.3113,659,43.3113,821
43.3901,697,43.3901,860
43.4689,660,43.4689,756
43.5477,654,43.5477,813
43.6265,639,43.6265,808
43.7052,598,43.7052,863
43.784,613,43.784,831
43.8628,624,43.8628,774
43.9416,635,43.9416,787
44.0204,671,44.0204,777
44.0992,643,44.0992,804
44.1779,619,44.1779,798
44.2567,646,44.2567,819
44.3355,621,44.3355,789
44.4143,680,44.4143,775
44.4931,649,44.4931,798
44.5718,620,44.5718,747
44.6506,642,44.6506,773
44.7294,632,44.7294,788
44.8082,592,44.8082,791
44.887,674,44.887,755
44.9658,639,44.9658,805
45.0445,660,45.0445,786
45.1233,589,45.1233,836
45.2021,647,45.2021,806
45.2809,615,45.2809,818
45.3597,619,45.3597,790
45.4384,572,45.4384,828
45.5172,598,45.5172,925
45.596,673,45.596,980
45.6748,564,45.6748,953
45.7536,595,45.7536,1072
45.8324,618,45.8324,1407
45.9111,581,45.9111,3658
45.9899,598,45.9899,7526
46.0687,622,46.0687,6932
46.1475,603,46.1475,1624
46.2263,630,46.2263,1227
46.305,611,46.305,1081
46.3838,611,46.3838,987
46.4626,618,46.4626,1046
46.5414,610,46.5414,980
46.6202,623,46.6202,957
46.699,598,46.699,955
46.7777,614,46.7777,1019
46.8565,613,46.8565,1038
46.9353,587,46.9353,1066
47.0141,587,47.0141,1080
47.0929,611,47.0929,1010
47.1716,611,47.1716,993
47.2504,613,47.2504,1037
47.3292,604,47.3292,1051
47.408,569,47.408,1025
47.4868,592,47.4868,1002
47.5656,591,47.5656,1096
47.6443,584,47.6443,1094
47.7231,607,47.7231,1094
47.8019,623,47.8019,975
47.8807,620,47.8807,1060
47.9595,560,47.9595,1027
48.0382,653,48.0382,1094
48.117,642,48.117,1067
48.1958,632,48.1958,1077
48.2746,610,48.2746,1124
48.3534,566,48.3534,1061
48.4322,615,48.4322,1180
48.5109,616,48.5109,1222
48.5897,630,48.5897,1269
48.6685,599,48.6685,1282
48.7473,574,48.7473,1302
48.8261,613,48.8261,1408
48.9048,613,48.9048,1748
48.9836,597,48.9836,2679
49.0624,599,49.0624,1797
49.1412,630,49.1412,1765
49.22,610,49.22,1993
49.2988,595,49.2988,2476
49.3775,579,49.3775,4967
49.4563,630,49.4563,7085
49.5351,581,49.5351,7731
49.6139,600,49.6139,8757
49.6927,577,49.6927,10040
49.7714,577,49.7714,11242
49.8502,546,49.8502,12487
49.929,576,49.929,14139
50.0078,591,50.0078,15864
50.0866,572,50.0866,17980
50.1654,538,50.1654,20204
50.2441,597,50.2441,22616
50.3229,588,50.3229,25175
50.4017,542,50.4017,28569
50.4805,561,50.4805,32136
50.5593,592,50.5593,36872
50.638,656,50.638,42358
50.7168,582,50.7168,50906
50.7956,581,50.7956,66425
50.8744,596,50.8744,94676
50.9532,642,50.9532,169025
51.0319,549,51.0319,388033
51.1107,625,51.1107,741647
51.1895,601,51.1895,2837206
51.2683,579,51.2683,18898042
51.3471,605,51.3471,4241801
51.4259,595,51.4259,9749017
51.5046,552,51.5046,783855
51.5834,567,51.5834,232221
51.6622,596,51.6622,118088
51.741,577,51.741,73416
51.8198,626,51.8198,51835
51.8985,628,51.8985,39760
51.9773,615,51.9773,32164
52.0561,574,52.0561,25478
52.1349,637,52.1349,20986
52.2137,659,52.2137,17405
52.2925,665,52.2925,14295
52.3712,749,52.3712,12122
52.45,1730,52.45,10319
52.5288,2698,52.5288,8964
52.6076,1581,52.6076,7709
52.6864,795,52.6864,6462
52.7651,692,52.7651,5783
52.8439,654,52.8439,5088
52.9227,613,52.9227,4491
53.0015,640,53.0015,3964
53.0803,627,53.0803,3537
53.1591,634,53.1591,3304
53.2378,621,53.2378,3141
53.3166,637,53.3166,2938
53.3954,612,53.3954,2716
53.4742,636,53.4742,2621
53.553,641,53.553,2479
53.6317,645,53.6317,2341
53.7105,615,53.7105,2169
53.7893,611,53.7893,2109
53.8681,602,53.8681,2014
53.9469,633,53.9469,1868
54.0257,653,54.0257,1917
54.1044,586,54.1044,1770
54.1832,628,54.1832,1758
54.262,645,54.262,1684
54.3408,631,54.3408,1604
54.4196,643,54.4196,1575
54.4983,646,54.4983,1423
54.5771,643,54.5771,1405
54.6559,629,54.6559,1371
54.7347,654,54.7347,1328
54.8135,679,54.8135,1317
54.8923,649,54.8923,1258
54.971,646,54.971,1232
55.0498,632,55.0498,1198
55.1286,645,55.1286,1143
55.2074,643,55.2074,1156
55.2862,644,55.2862,1186
55.3649,621,55.3649,1282
55.4437,665,55.4437,1228
55.5225,716,55.5225,1183
55.6013,712,55.6013,1160
55.6801,680,55.6801,1151
55.7589,690,55.7589,1058
55.8376,719,55.8376,1146
55.9164,773,55.9164,1050
55.9952,1214,55.9952,1035
56.074,860,56.074,1062
56.1528,838,56.1528,958
56.2315,837,56.2315,1011
56.3103,846,56.3103,1017
56.3891,1045,56.3891,966
56.4679,1762,56.4679,1031
56.5467,2124,56.5467,1020
56.6255,2299,56.6255,979
56.7042,2568,56.7042,911
56.783,2740,56.783,989
56.8618,3020,56.8618,1036
56.9406,3377,56.9406,958
57.0194,3544,57.0194,946
57.0981,3987,57.0981,967
57.1769,4377,57.1769,944
57.2557,4768,57.2557,949
57.3345,5205,57.3345,891
57.4133,5649,57.4133,895
57.492,6311,57.492,926
57.5708,6938,57.5708,961
57.6496,7558,57.6496,922
57.7284,8068,57.7284,961
57.8072,8885,57.8072,915
57.886,10196,57.886,888
57.9647,11427,57.9647,922
58.0435,13242,58.0435,898
58.1223,16214,58.1223,857
58.2011,20833,58.2011,893
58.2799,30422,58.2799,881
58.3586,66951,58.3586,900
58.4374,99141,58.4374,841
58.5162,140533,58.5162,848
58.595,454484,58.595,871
58.6738,9073633,58.6738,855
58.7526,512969,58.7526,896
58.8313,4129867,58.8313,879
58.9101,228477,58.9101,849
58.9889,67029,58.9889,869
59.0677,36207,59.0677,832
59.1465,22713,59.1465,864
59.2252,16356,59.2252,840
59.304,12659,59.304,884
59.3828,10264,59.3828,840
59.4616,8664,59.4616,894
59.5404,7316,59.5404,849
59.6192,6032,59.6192,875
59.6979,5305,59.6979,819
59.7767,4532,59.7767,849
59.8555,3893,59.8555,905
59.9343,3521,59.9343,837
60.0131,3123,60.0131,869
60.0918,2718,60.0918,826
60.1706,2508,60.1706,826
60.2494,2280,60.2494,853
60.3282,2064,60.3282,823
60.407,1823,60.407,857
60.4858,1670,60.4858,882
60.5645,1619,60.5645,804
60.6433,1464,60.6433,830
60.7221,1388,60.7221,868
60.8009,1320,60.8009,839
60.8797,1318,60.8797,924
60.9584,1164,60.9584,883
61.0372,1183,61.0372,889
61.116,1136,61.116,835
61.1948,1086,61.1948,850
61.2736,1056,61.2736,894
61.3524,1087,61.3524,829
61.4311,1005,61.4311,838
61.5099,1053,61.5099,860
61.5887,929,61.5887,870
61.6675,940,61.6675,885
61.7463,973,61.7463,886
61.825,970,61.825,841
61.9038,900,61.9038,894
61.9826,935,61.9826,846
62.0614,933,62.0614,844
62.1402,905,62.1402,879
62.219,900,62.219,853
62.2977,907,62.2977,843
62.3765,846,62.3765,917
62.4553,924,62.4553,834
62.5341,820,62.5341,796
62.6129,850,62.6129,837
62.6916,812,62.6916,836
62.7704,828,62.7704,837
62.8492,783,62.8492,829
62.928,794,62.928,785
63.0068,812,63.0068,816
63.0856,770,63.0856,890
63.1643,782,63.1643,870
63.2431,753,63.2431,845
63.3219,815,63.3219,845
63.4007,798,63.4007,822
63.4795,724,63.4795,835
63.5582,816,63.5582,816
63.637,775,63.637,767
63.7158,773,63.7158,815
63.7946,755,63.7946,813
63.8734,738,63.8734,856
63.9521,730,63.9521,839
64.0309,758,64.0309,814
64.1097,766,64.1097,841
64.1885,731,64.1885,818
64.2673,768,64.2673,851
64.3461,710,64.3461,832
64.4248,696,64.4248,809
64.5036,724,64.5036,837
64.5824,760,64.5824,770
64.6612,706,64.6612,825
64.74,784,64.74,800
64.8187,686,64.8187,863
64.8975,690,64.8975,847
64.9763,708,64.9763,777
65.0551,695,65.0551,824
65.1339,722,65.1339,824
65.2127,706,65.2127,866
65.2914,712,65.2914,793
65.3702,701,65.3702,837
65.449,715,65.449,751
65.5278,710,65.5278,794
65.6066,690,65.6066,818
65.6853,717,65.6853,813
65.7641,715,65.7641,806
65.8429,688,65.8429,783
65.9217,703,65.9217,798
66.0005,698,66.0005,782
66.0793,724,66.0793,798
66.158,672,66.158,772
66.2368,699,66.2368,825
66.3156,730,66.3156,777
66.3944,680,66.3944,848
66.4732,726,66.4732,832
66.5519,694,66.5519,799
66.6307,697,66.6307,819
66.7095,656,66.7095,844
66.7883,687,66.7883,809
66.8671,715,66.8671,821
66.9459,696,66.9459,790
67.0246,671,67.0246,789
67.1034,639,67.1034,767
67.1822,718,67.1822,790
67.261,719,67.261,784
67.3398,727,67.3398,833
67.4185,705,67.4185,762
67.4973,719,67.4973,792
67.5761,632,67.5761,827
67.6549,681,67.6549,824
67.7337,705,67.7337,772
67.8125,720,67.8125,821
67.8912,680,67.8912,789
67.97,715,67.97,768
68.0488,754,68.0488,865
68.1276,695,68.1276,779
68.2064,670,68.2064,857
68.2851,640,68.2851,884
68.3639,680,68.3639,770
68.4427,715,68.4427,837
68.5215,687,68.5215,796
68.6003,630,,
68.6791,707,,
68.7578,730,,
68.8366,736,,
68.9154,679,,
68.9942,680,,
69.073,698,,
69.1517,724,,
69.2305,672,,
69.3093,738,,
69.3881,720,,
69.4669,625,,
69.5457,727,,
69.6244,710,,
69.7032,680,,
69.782,711,,
69.8608,671,,
69.9396,711,,
70.0183,732,,
70.0971,660,,
70.1759,753,,
70.2547,672,,
70.3335,683,,
70.4122,692,,
70.491,685,,
70.5698,691,,
70.6486,671,,
70.7274,654,,
70.8062,700,,
70.8849,658,,
70.9637,741,,
71.0425,684,,
71.1213,672,,
71.2001,655,,
71.2788,668,,
71.3576,746,,
71.4364,664,,
71.5152,674,,
71.594,711,,
71.6728,707,,
71.7515,694,,
71.8303,688,,
71.9091,659,,
71.9879,672,,
72.0667,669,,
72.1454,667,,
72.2242,667,,
72.303,718,,
72.3818,682,,
72.4606,731,,
72.5394,750,,
72.6181,736,,
72.6969,704,,
72.7757,676,,
72.8545,712,,
72.9333,694,,
73.012,675,,
73.0908,695,,
73.1696,615,,
73.2484,721,,
73.3272,648,,
73.406,715,,
73.4847,717,,
73.5635,696,,
73.6423,684,,
73.7211,654,,
73.7999,639,,
73.8786,737,,
73.9574,689,,
74.0362,663,,
74.115,670,,
74.1938,693,,
74.2726,666,,
74.3513,727,,
74.4301,676,,
74.5089,673,,
74.5877,692,,
74.6665,691,,
74.7452,686,,
74.824,661,,
74.9028,661,,
74.9816,756,,
75.0604,689,,
75.1392,725,,
75.2179,665,,
75.2967,712,,
75.3755,671,,
75.4543,700,,
75.5331,674,,
75.6118,648,,
75.6906,700,,
75.7694,699,,
75.8482,660,,
75.927,638,,
76.0058,705,,
76.0845,652,,
76.1633,682,,
76.2421,712,,
76.3209,698,,
76.3997,711,,
76.4784,693,,
76.5572,679,,
76.636,689,,
76.7148,712,,
76.7936,714,,
76.8723,709,,
76.9511,696,,
77.0299,703,,
77.1087,707,,
77.1875,668,,
77.2663,696,,
77.345,674,,
77.4238,665,,
77.5026,723,,
77.5814,686,,
77.6602,701,,
77.7389,670,,
77.8177,710,,
77.8965,705,,
77.9753,707,,
78.0541,747,,
78.1329,693,,
78.2116,709,,
78.2904,684,,
78.3692,733,,
78.448,701,,
78.5268,685,,
78.6055,692,,
78.6843,728,,
78.7631,700,,
78.8419,728,,
78.9207,765,,
78.9995,719,,
79.0782,748,,
79.157,685,,
79.2358,709,,
79.3146,720,,
79.3934,723,,
79.4721,736,,
79.5509,708,,
79.6297,744,,
79.7085,761,,
79.7873,720,,
79.8661,713,,
79.9448,704,,
80.0236,745,,
80.1024,728,,
80.1812,718,,
80.26,733,,
80.3387,665,,
80.4175,690,,
80.4963,705,,
80.5751,717,,
80.6539,728,,
80.7327,688,,
80.8114,711,,
80.8902,809,,
80.969,663,,
81.0478,688,,
81.1266,714,,
81.2053,661,,
81.2841,720,,
81.3629,713,,
81.4417,664,,
81.5205,725,,
81.5993,723,,
81.678,700,,
81.7568,701,,
81.8356,706,,
81.9144,682,,
81.9932,728,,
82.0719,756,,
82.1507,687,,
82.2295,728,,
82.3083,680,,
82.3871,713,,
82.4659,716,,
82.5446,696,,
82.6234,768,,
82.7022,689,,
82.781,712,,
82.8598,680,,
82.9385,729,,
83.0173,706,,
83.0961,691,,
83.1749,726,,
83.2537,708,,
83.3325,680,,
83.4112,712,,
83.49,733,,
83.5688,719,,
83.6476,689,,
83.7264,748,,
83.8051,702,,
83.8839,713,,
83.9627,694,,
84.0415,680,,
84.1203,708,,
84.199,737,,
84.2778,733,,
84.3566,699,,
84.4354,706,,
84.5142,735,,
84.593,686,,
84.6717,722,,
84.7505,696,,
84.8293,682,,
84.9081,665,,
84.9869,680,,